Scaled Harmonic Vibrational Spectrum
v(cm-1) Inten (km/mol)
 -413.321760   19.4103000
   50.418432   24.9028000
   87.727584   28.1315000
  134.206272    6.0789000
  180.907872    5.0230000
  275.103648    0.7628000
  287.875584   12.9597000
  410.554272    0.2582000
  441.611616   11.0350000
  446.319360    4.4058000
  495.993696    4.6402000
  526.844544   12.0167000
  539.545632    1.8439000
  604.616544    2.1683000
  609.440736   13.2923000
  658.429056   47.0905000
  694.681632   96.3070000
  744.820224   25.2802000
  748.264320    2.8305000
  758.143680    3.0128000
  763.409952   20.8339000
  826.126080   28.9965000
  866.586528    3.8653000
  888.637824    0.3971000
  943.914432    1.6364000
  976.958112    0.2670000
  985.435296    0.1379000
 1006.396896   11.9975000
 1027.309248    0.6712000
 1116.205056    1.0437000
 1156.990656    1.0696000
 1177.274304    2.9939000
 1218.822240   20.1521000
 1249.045344    5.6749000
 1286.605248   11.7982000
 1331.873088    0.2333000
 1385.072832    8.3893000
 1418.767296    3.4084000
 1434.796992    7.2292000
 1483.540032   23.6164000
 1542.262848   12.5907000
 1556.576928   19.5007000
 1611.138240    2.0837000
 2059.427616  157.5635000
 3008.094528   38.9452000
 3034.703520   87.4485000
 3049.685952    4.4915000
 3055.905408    8.7358000
 3069.441024   39.9412000
 3083.177760   37.3128000
 3327.312864  304.5222000
